LabVIEW Measurement	
Writer_Version	2
Reader_Version	2
Separator	Tab
Decimal_Separator	.
Multi_Headings	No
X_Columns	No
Time_Pref	Absolute
Operator	Alexander
Date	2024/07/29
Time	15:46:58.8922710418701171875
***End_of_Header***	
	
Channels	3			
Samples	1	1	1	
Date	2024/07/29	2024/07/29	2024/07/29	
Time	15:46:58.8922710418701171875	15:46:59.1441745758056640625	15:46:59.1441745758056640625	
X_Dimension	Time	Time	Time	
X0	0.0000000000000000E+0	0.0000000000000000E+0	0.0000000000000000E+0	
Delta_X	1.000000	1.000000	1.000000	
***End_of_Header***				
X_Value	Untitled	Untitled 1	Untitled 2	Comment
	0.000000	42.739000	2.208000
	82.142000	43.978000	2.186000
	134.229000	43.864000	2.199000
	184.369000	43.953000	2.199000
	236.468000	44.026000	1.183000
	288.621000	45.528000	1.190000
	338.771000	45.206000	1.177000
	390.917000	45.574000	1.182000
	443.075000	45.655000	2.209000
	495.184000	43.970000	2.185000
	545.276000	43.862000	2.198000
	597.376000	43.981000	2.189000
	647.477000	44.001000	1.190000
	699.651000	45.516000	1.167000
	751.822000	45.203000	1.182000
	801.970000	45.528000	1.192000
	854.116000	45.653000	2.176000
	906.229000	43.959000	2.181000
	956.326000	43.867000	2.181000
	1008.422000	43.984000	2.175000
	1058.523000	43.996000	1.174000
	1110.693000	45.518000	1.181000
	1162.842000	45.211000	1.170000
	1212.992000	45.540000	1.181000
	1265.140000	45.640000	2.565000
	1317.248000	43.835000	2.577000
	1367.326000	43.469000	2.539000
	1419.418000	43.839000	2.541000
	1471.509000	43.998000	1.363000
	1521.641000	45.056000	1.377000
	1573.746000	44.148000	1.390000
	1623.889000	45.078000	1.375000
	1676.119000	45.675000	2.563000
	1728.247000	43.835000	2.536000
	1778.326000	43.465000	2.535000
	1830.416000	43.829000	2.518000
	1882.519000	43.982000	1.369000
	1932.659000	45.057000	1.376000
	1984.791000	44.152000	1.375000
	2034.919000	45.100000	1.365000
	2087.105000	45.651000	2.549000
	2139.278000	43.839000	2.540000
	2189.433000	43.466000	2.530000
	2241.530000	43.835000	2.534000
	2293.643000	44.013000	1.360000
	2343.959000	45.068000	1.366000
	2394.103000	44.160000	1.388000
	2446.374000	45.117000	1.375000
	2500.239000	45.657000	3.112000
	2550.434000	43.539000	3.096000
	2600.697000	43.032000	3.105000
	2652.778000	43.552000	3.092000
	2704.882000	43.953000	1.652000
	2755.177000	44.322000	1.690000
	2805.280000	43.307000	1.672000
	2857.408000	44.364000	1.698000
	2909.714000	45.544000	3.083000
	2959.827000	43.552000	3.102000
	3011.890000	43.015000	3.127000
	3063.979000	43.562000	3.069000
	3116.217000	43.959000	1.663000
	3166.351000	44.329000	1.680000
	3216.417000	43.309000	1.664000
	3266.520000	44.358000	1.701000
	3320.762000	45.528000	3.093000
	3370.856000	43.542000	3.123000
	3422.919000	43.010000	3.148000
	3475.002000	43.550000	3.128000
	3527.099000	43.962000	1.669000
	3577.203000	44.312000	1.678000
	3627.293000	43.298000	1.663000
	3677.407000	44.337000	1.681000
	3729.564000	45.488000	4.017000
	3783.654000	43.233000	4.051000
	3833.711000	42.715000	4.030000
	3887.775000	43.243000	4.032000
	3939.867000	43.935000	2.189000
	3989.956000	43.675000	2.198000
	4040.005000	42.823000	2.187000
	4092.082000	43.688000	2.184000
	4144.219000	45.418000	4.042000
	4196.328000	43.235000	4.001000
	4248.376000	42.714000	3.991000
	4300.469000	43.237000	4.080000
	4352.561000	43.915000	2.153000
	4404.641000	43.673000	2.183000
	4454.690000	42.818000	2.186000
	4504.777000	43.706000	2.157000
	4556.936000	45.413000	3.993000
	4609.023000	43.179000	4.035000
	4661.085000	42.720000	4.011000
	4713.147000	43.252000	4.031000
	4767.234000	43.950000	2.189000
	4817.320000	43.687000	2.178000
	4867.362000	42.831000	2.156000
	4919.452000	43.703000	2.198000
	4971.596000	45.435000	5.407000
	5023.664000	42.941000	5.406000
	5077.699000	42.510000	5.436000
	5131.750000	42.951000	5.374000
	5185.837000	43.900000	2.915000
	5235.893000	43.174000	2.905000
	5285.927000	42.549000	2.913000
	5337.982000	43.190000	2.922000
	5392.098000	45.284000	5.385000
	5444.168000	42.941000	5.418000
	5498.207000	42.495000	5.427000
	5550.284000	42.944000	5.453000
	5604.371000	43.886000	2.895000
	5656.432000	43.180000	2.906000
	5706.474000	42.541000	2.962000
	5758.526000	43.174000	2.937000
	5810.660000	45.299000	5.447000
	5864.730000	42.955000	5.380000
	5916.768000	42.511000	5.442000
	5970.822000	42.946000	5.446000
	6024.909000	43.907000	2.943000
	6076.970000	43.182000	2.927000
	6127.008000	42.559000	2.892000
	6177.072000	43.179000	2.916000
	6231.202000	45.293000	7.122000
	6285.267000	42.725000	7.145000
	6341.298000	42.378000	7.118000
	6395.339000	42.732000	7.084000
	6451.444000	43.856000	3.841000
	6503.498000	42.828000	3.817000
	6553.534000	42.400000	3.835000
	6605.578000	42.853000	3.854000
	6659.702000	45.097000	7.133000
	6713.747000	42.726000	7.086000
	6769.785000	42.386000	7.097000
	6823.827000	42.734000	7.070000
	6879.912000	43.861000	3.820000
	6931.966000	42.840000	3.812000
	6981.999000	42.420000	3.871000
	7034.039000	42.850000	3.844000
	7088.156000	45.117000	7.127000
	7144.209000	42.710000	7.007000
	7198.245000	42.372000	7.157000
	7252.289000	42.725000	7.050000
	7308.372000	43.389000	3.803000
	7360.429000	42.840000	3.785000
	7410.462000	42.398000	3.852000
	7462.508000	42.854000	3.782000
	7516.632000	45.113000	8.942000
	7572.680000	42.530000	8.859000
	7628.722000	42.331000	8.952000
	7684.757000	42.590000	8.921000
	7742.843000	43.817000	4.798000
	7794.883000	42.592000	4.806000
	7848.911000	42.379000	4.803000
	7900.955000	42.624000	4.790000
	7955.075000	44.887000	8.916000
	8011.119000	42.552000	8.896000
	8067.148000	42.376000	8.902000
	8125.193000	42.584000	8.889000
	8181.280000	43.814000	4.799000
	8235.317000	42.593000	4.805000
	8287.361000	42.374000	4.782000
	8339.399000	42.635000	4.793000
	8393.529000	44.873000	8.885000
	8449.571000	42.541000	8.908000
	8505.603000	42.363000	8.918000
	8563.639000	42.578000	8.865000
	8621.719000	43.827000	4.813000
	8673.766000	42.587000	4.811000
	8725.792000	42.360000	4.795000
	8777.830000	42.621000	4.804000
	8831.943000	44.859000	10.939000
	8889.992000	42.448000	10.919000
	8948.018000	42.270000	10.986000
	9008.049000	42.463000	10.953000
	9068.131000	43.750000	5.882000
	9120.170000	42.433000	5.910000
	9174.213000	42.325000	5.887000
	9226.255000	42.473000	5.897000
	9282.386000	44.678000	10.943000
	9340.427000	42.416000	10.929000
	9398.456000	42.347000	10.883000
	9458.495000	42.472000	10.937000
	9516.574000	43.740000	5.897000
	9570.612000	42.447000	5.913000
	9624.634000	42.296000	5.900000
	9676.667000	42.503000	5.937000
	9732.793000	44.694000	11.012000
	9790.834000	42.424000	10.947000
	9848.863000	42.361000	10.943000
	9908.903000	42.465000	10.908000
	9966.986000	43.767000	5.885000
	10021.021000	42.457000	5.897000
	10075.065000	42.372000	5.939000
	10127.101000	42.483000	5.879000
	10183.211000	44.708000	13.282000
	10243.249000	42.398000	13.242000
	10305.278000	42.358000	13.257000
	10365.313000	42.326000	13.392000
	10427.421000	43.706000	7.142000
	10481.452000	42.370000	7.141000
	10535.473000	42.330000	7.127000
	10591.507000	42.419000	7.137000
	10647.614000	44.604000	13.292000
	10707.651000	42.363000	13.241000
	10769.677000	42.367000	13.280000
	10829.712000	42.394000	13.241000
	10891.793000	43.697000	7.180000
	10945.826000	42.393000	7.171000
	10999.864000	42.380000	7.171000
	11055.899000	42.386000	7.170000
	11112.009000	44.609000	13.249000
	11172.049000	42.359000	13.271000
	11234.079000	42.311000	13.218000
	11294.108000	42.365000	13.311000
	11356.187000	43.706000	7.139000
	11410.225000	42.383000	7.177000
	11464.248000	42.299000	7.147000
	11520.278000	42.411000	7.130000
	11576.381000	44.612000	15.881000
	11640.426000	42.333000	15.959000
	11702.460000	42.437000	15.814000
	11766.499000	42.356000	15.909000
	11830.579000	43.622000	8.555000
	11886.626000	42.359000	8.612000
	11942.650000	42.402000	8.587000
	11998.675000	42.279000	8.566000
	12056.782000	44.162000	15.842000
	12118.819000	42.297000	15.983000
	12182.846000	42.409000	15.807000
	12246.878000	42.305000	15.777000
	12310.964000	43.636000	8.573000
	12366.995000	42.365000	8.567000
	12423.019000	42.385000	8.593000
	12479.047000	42.329000	8.558000
	12537.160000	44.385000	15.943000
	12599.194000	42.304000	15.799000
	12663.225000	42.304000	15.805000
	12725.255000	42.353000	15.834000
	12789.359000	43.234000	8.676000
	12845.401000	42.352000	8.712000
	12901.424000	42.441000	8.528000
	12957.449000	42.361000	8.527000
	13015.565000	44.396000	19.100000
	13081.608000	42.324000	19.695000
	13149.638000	42.494000	19.628000
	13215.668000	42.353000	18.955000
	13283.754000	43.582000	10.352000
	13341.793000	42.282000	10.487000
	13399.816000	42.359000	10.346000
	13457.841000	42.283000	10.857000
	13517.933000	44.270000	18.934000
	13583.969000	42.370000	18.821000
	13649.996000	42.435000	18.861000
	13716.046000	42.334000	18.929000
	13784.139000	43.579000	10.863000
	13842.176000	42.263000	10.373000
	13900.203000	42.530000	10.274000
	13956.232000	42.351000	10.196000
	14016.344000	44.297000	19.187000
	14082.385000	42.299000	18.962000
	14150.417000	42.478000	18.876000
	14216.452000	42.275000	18.922000
	14282.530000	43.584000	10.355000
	14340.560000	42.345000	10.169000
	14398.582000	42.445000	10.872000
	14456.609000	42.343000	10.194000
	14516.716000	44.262000	29.017000
	14592.773000	42.259000	30.856000
	14670.805000	42.406000	27.375000
	14744.838000	42.323000	27.375000
	14818.952000	43.505000	12.900000
	14878.995000	42.287000	12.769000
	14939.019000	42.604000	13.146000
	14999.044000	42.310000	12.786000
	15061.139000	44.140000	24.054000
	15133.171000	42.269000	26.285000
	15205.200000	42.415000	28.047000
	15281.231000	42.260000	24.080000
	15353.327000	43.529000	12.997000
	15413.357000	42.290000	12.639000
	15475.399000	42.573000	12.787000
	15535.427000	42.354000	12.895000
	15597.521000	44.142000	23.965000
	15667.559000	42.299000	23.458000
	15739.586000	42.591000	26.251000
	15811.615000	42.261000	23.771000
	15885.686000	43.522000	12.725000
	15945.716000	42.356000	15.429000
	16007.739000	42.366000	15.429000
	16067.761000	42.273000	12.742000
	16129.847000	44.121000	31.433000
	16207.883000	42.496000	33.216000
	16289.920000	42.707000	31.086000
	16367.975000	42.304000	31.066000
	16448.071000	43.462000	16.840000
	16512.100000	42.443000	17.464000
	16576.132000	42.554000	16.345000
	16640.156000	42.340000	22.971000
	16712.244000	44.036000	31.924000
	16792.288000	42.470000	30.026000
	16870.324000	42.771000	31.069000
	16948.358000	42.419000	31.298000
	17028.451000	43.445000	16.702000
	17092.483000	42.540000	16.753000
	17156.510000	42.817000	16.520000
	17220.538000	42.396000	16.616000
	17286.654000	44.035000	30.904000
	17364.690000	42.559000	31.272000
	17444.721000	42.714000	31.272000
	17522.753000	42.379000	30.528000
	17600.827000	43.457000	16.999000
	17666.859000	42.446000	17.079000
	17730.886000	42.641000	17.344000
	17794.912000	42.350000	17.093000
	17861.001000	44.052000	17.093000
	0.000000	44.375000	191.155000
	0.000000	44.375000	191.155000
	0.000000	44.375000	191.155000
	0.000000	45.562000	1.373000
	0.000000	45.562000	1.373000
	0.001000	45.562000	1.373000
	0.000000	0.000000	0.000000
	0.000000	43.388000	22.963000
	44.031000	42.457000	22.401000
	184.079000	42.975000	41.593000
	274.119000	42.409000	41.593000
	362.184000	43.215000	22.465000
	432.213000	42.320000	22.596000
	502.238000	42.784000	22.616000
	572.266000	42.390000	22.497000
	644.341000	43.868000	22.497000
	732.398000	42.443000	40.622000
	822.435000	42.883000	41.295000
	910.468000	42.445000	41.935000
	1000.539000	43.379000	22.439000
	1070.571000	42.423000	22.526000
	1140.602000	42.546000	22.805000
	1210.629000	42.346000	22.200000
	1282.701000	43.882000	22.200000
	0.000000	42.554000	71.537000
	146.046000	42.327000	41.174000
	234.114000	43.368000	24.123000
	306.145000	42.339000	22.229000
	376.172000	42.641000	24.070000
	448.203000	42.421000	22.257000
	518.274000	43.840000	22.257000
	620.329000	42.546000	54.964000
	724.377000	42.944000	55.018000
	0.000000	43.517000	29.702000
	154.094000	43.340000	28.978000
	230.126000	42.448000	28.804000
	306.156000	43.121000	28.804000
	384.185000	42.404000	29.640000
	462.257000	43.705000	29.640000
	0.000000	42.650000	54.582000
	154.044000	42.735000	54.582000
	256.091000	42.424000	55.088000
	358.162000	43.341000	29.560000
	434.196000	42.561000	28.836000
	512.227000	43.499000	28.867000
	588.261000	42.502000	29.991000
	666.372000	43.758000	29.991000
	768.424000	42.677000	54.271000
	872.467000	43.142000	54.923000
	0.000000	43.919000	196.284000
	156.099000	43.341000	29.288000
	234.139000	42.594000	29.373000
	310.191000	42.945000	29.259000
	388.241000	42.368000	29.416000
	466.405000	43.780000	29.416000
	586.465000	42.539000	72.505000
	706.514000	43.432000	72.802000
	870.554000	42.389000	72.802000
	990.641000	43.263000	71.833000
	1076.680000	42.828000	71.833000
	1164.709000	43.579000	39.576000
	0.000000	42.814000	115.969000
	0.000000	42.517000	64.615000
	144.089000	0.000000	0.000000
	0.000000	42.554000	71.537000
	176.042000	43.298000	72.682000
	296.080000	42.485000	73.157000
	416.152000	43.229000	73.157000
	504.185000	0.000000	0.000000
	0.000000	42.554000	71.537000
	172.048000	43.455000	72.609000
	292.093000	42.454000	71.393000
	410.171000	43.269000	71.410000
	498.206000	42.787000	39.266000
	584.232000	0.000000	0.000000
	0.000000	42.444000	72.125000
	0.000000	42.508000	50.546000
	21.024000	42.508000	50.546000
	0.000000	42.508000	50.546000
	21.027000	42.508000	50.546000
	252.066000	42.943000	72.409000
	466.222000	42.584000	70.652000
	592.287000	43.276000	71.423000
	676.315000	42.854000	39.703000
	760.337000	43.340000	38.515000
	844.356000	42.551000	38.665000
	907.419000	43.595000	38.665000
	1054.450000	42.679000	94.497000
	1201.503000	43.657000	94.873000
	1327.535000	42.478000	96.777000
	1474.590000	43.217000	96.018000
	1558.625000	42.406000	52.066000
	1663.649000	42.993000	50.186000
	1747.669000	42.433000	50.412000
	1852.735000	43.500000	52.434000
	1978.779000	42.411000	93.218000
	2125.821000	43.574000	93.218000
	2398.881000	43.196000	95.396000
	2482.914000	42.646000	51.784000
	78394.156000	42.685000	442.072000
	78415.208000	42.685000	442.072000
	0.000000	46.514000	241.745000
	21.079000	46.514000	241.745000
	0.000000	43.867000	65.024000
	21.063000	43.867000	65.024000
	0.000000	42.561000	94.662000
	22.098000	42.561000	94.662000
	505.133000	43.565000	93.408000
	652.162000	42.826000	93.608000
	778.228000	43.207000	93.630000
	967.284000	43.257000	50.548000
	1072.319000	42.570000	50.951000
	1156.384000	43.492000	50.412000
	1324.426000	42.683000	121.990000
	1492.454000	43.325000	120.486000
	1639.480000	42.550000	116.718000
	1807.555000	43.166000	120.627000
	1912.581000	42.593000	64.323000
	2143.638000	42.852000	62.936000
	2248.707000	43.441000	64.006000
	2395.740000	42.577000	116.298000
	2563.779000	43.917000	122.767000
	2731.858000	42.560000	118.896000
	2878.951000	43.160000	117.003000
	3004.982000	42.647000	63.871000
	3110.011000	44.193000	63.894000
	3215.033000	42.545000	64.550000
	3320.092000	43.452000	65.265000
	3488.128000	42.817000	119.264000
	3635.158000	43.788000	119.633000
	0.001000	42.867000	141.329000
	0.000000	42.867000	141.329000
	21.033000	42.867000	141.329000
	0.000000	42.867000	141.329000
	21.031000	42.867000	141.329000
	0.000000	42.867000	141.329000
	21.034000	42.867000	141.329000
	0.000000	43.412000	115.923000
	21.098000	43.412000	115.923000
	0.000000	43.418000	117.693000
	21.062000	43.418000	117.693000
	357.101000	43.256000	117.632000
	525.136000	42.533000	119.385000
	693.199000	43.089000	117.659000
	798.247000	42.806000	63.757000
	903.284000	43.681000	64.368000
	1008.306000	42.681000	62.706000
	1113.371000	43.392000	64.749000
	1302.416000	42.863000	143.290000
	1491.445000	44.321000	140.844000
	1680.509000	42.813000	142.933000
	1869.582000	42.809000	146.787000
	1974.639000	42.625000	77.085000
	2100.664000	43.920000	77.843000
	2226.685000	42.606000	77.080000
	2352.740000	42.962000	77.136000
	2520.774000	42.678000	142.628000
	2709.828000	43.822000	144.324000
	2898.869000	42.816000	144.429000
	3087.936000	43.081000	142.479000
	3213.968000	42.526000	76.040000
	3339.994000	44.359000	76.607000
	3445.052000	42.621000	76.777000
	3571.120000	43.304000	75.796000
	0.000000	42.867000	49.273000
	300.033000	42.806000	141.140000
	480.058000	43.442000	140.846000
	720.087000	43.119000	141.532000
	960.137000	43.095000	76.414000
	1080.172000	42.901000	76.414000
	1260.196000	44.420000	75.406000
	1380.218000	42.808000	75.406000
	1560.280000	43.339000	76.562000
	1800.313000	42.800000	170.018000
	2040.337000	45.049000	169.765000
	2280.372000	42.899000	175.019000
	2520.457000	43.038000	171.030000
	2700.487000	42.803000	89.842000
	2820.490000	0.000000	0.000000
	0.000000	43.095000	169.051000
	0.000000	43.095000	143.384000
	0.000000	43.095000	92.180000
	240.028000	44.763000	91.323000
	420.030000	0.000000	0.000000
	0.000000	43.074000	91.397000
	60.068000	43.074000	91.397000
	780.122000	42.869000	167.183000
	1080.165000	44.764000	171.728000
	1320.204000	42.731000	168.089000
	1560.281000	43.053000	169.982000
	1680.319000	42.900000	91.081000
	1860.360000	44.667000	93.753000
	2040.384000	42.849000	92.469000
	2220.444000	43.073000	91.734000
	2460.478000	42.937000	168.643000
	2700.508000	45.047000	170.729000
	2940.538000	43.045000	168.661000
	3180.601000	43.028000	170.483000
	3360.639000	42.979000	91.680000
	3480.697000	45.029000	91.990000
	3660.729000	42.825000	90.245000
	3840.791000	42.803000	92.403000
	4080.828000	42.955000	200.589000
	4380.891000	44.136000	200.571000
	4680.935000	43.132000	199.272000
	4920.993000	42.902000	199.214000
	5100.999000	0.000000	0.000000
	0.000000	42.606000	239.700000
	360.034000	42.818000	198.645000
	600.119000	43.000000	199.020000
	780.159000	42.901000	107.937000
	960.194000	45.670000	109.226000
	1140.234000	42.843000	110.480000
	0.000000	42.606000	239.700000
	0.000000	42.606000	239.700000
	360.034000	34.950000	201.325000
	660.068000	32.870000	200.206000
	900.127000	32.761000	198.030000
	1080.161000	33.047000	105.888000
	1320.225000	35.502000	106.377000
	1500.248000	32.884000	106.783000
	1680.397000	32.908000	107.124000
	1980.483000	32.951000	219.720000
	2280.514000	34.984000	199.075000
	2520.543000	32.821000	200.072000
	2820.630000	32.757000	200.072000
	3000.668000	33.094000	105.693000
	3180.698000	34.411000	107.075000
	3420.733000	33.306000	106.096000
	3600.793000	32.918000	110.249000
	3900.832000	33.082000	224.394000
	4200.841000	0.000000	0.000000
	0.000000	42.606000	239.700000
	0.000000	42.606000	239.700000
	240.037000	33.477000	123.190000
	480.087000	34.322000	122.637000
	660.113000	33.344000	121.985000
	900.163000	32.716000	127.620000
	1200.223000	33.237000	222.704000
	1500.256000	36.054000	224.005000
	1800.289000	33.196000	227.294000
	2100.377000	32.713000	225.033000
	2340.420000	33.093000	120.868000
	2520.455000	34.672000	122.938000
	2760.479000	33.263000	121.146000
	2940.571000	32.849000	123.243000
	3240.619000	33.157000	229.417000
	3540.653000	34.304000	220.372000
	3900.726000	33.357000	224.274000
	4200.787000	32.718000	222.404000
	4380.825000	33.193000	129.245000
	0.000000	36.090000	243.209000
	60.063000	36.090000	243.209000
	0.000000	36.090000	243.209000
	60.031000	36.090000	243.209000
	0.000000	33.047000	251.403000
	60.057000	33.047000	251.403000
	0.000000	34.578000	252.457000
	60.040000	34.578000	252.457000
	1380.131000	32.690000	251.047000
	1620.183000	33.684000	134.187000
	1860.216000	35.245000	136.502000
	2040.238000	34.097000	136.509000
	2280.287000	32.782000	143.432000
	2640.340000	33.089000	253.637000
	3000.381000	34.783000	268.586000
	3360.424000	33.381000	284.765000
	3720.492000	32.687000	270.140000
	3900.529000	32.861000	145.590000
	4140.562000	34.977000	143.625000
	4380.624000	33.692000	148.998000
	4620.691000	32.779000	145.309000
	4980.760000	32.995000	270.468000
	0.000000	34.276000	296.449000
	60.045000	34.276000	296.449000
	0.001000	32.263000	10.987000
	60.042000	32.263000	10.987000
	0.000000	34.684000	260.928000
	0.000000	34.684000	260.928000
	420.033000	34.561000	253.349000
	720.066000	33.219000	251.835000
	1080.127000	32.663000	253.224000
	1260.166000	33.680000	135.780000
	1500.196000	34.956000	135.619000
	1740.257000	33.932000	135.506000
	1920.261000	0.000000	0.000000
